Folder: Regression-Analysis/Concrete Comprehensive Strength

File: train.csv
Cement (component 1)(kg in a m^3 mixture),Blast Furnace Slag (component 2)(kg in a m^3 mixture),Fly Ash (component 3)(kg in a m^3 mixture),Water  (component 4)(kg in a m^3 mixture),Superplasticizer (component 5)(kg in a m^3 mixture),Coarse Aggregate  (component 6)(kg in a m^3 mixture),Fine Aggregate (component 7)(kg in a m^3 mixture),Age (day),"Concrete compressive strength(MPa, megapascals) "
277,0,0,191,0,968,856,28,25.9657
212.57,0,100.39,159.35,10.37,1003.8,903.79,3,13.3345
500,0,0,200,0,1125,613,1,12.6381
212,0,124.78,159,7.84,1085.4,799.54,56,45.0848
166.09,0,163.27,176.46,4.49,1058.6,780.09,100,33.543
310,143,0,168,10,914,804,28,45.2986
288,192,0,192,0,932,717.8,3,16.1096
305.3,203.5,0,203.5,0,965.4,631,7,25.894
135.7,203.5,0,185.7,0,1076.2,759.3,28,18.1987
313.8,0,112.6,169.9,10.1,925.3,782.9,28,38.461
362.6,189,0,164.9,11.6,944.7,755.8,56,77.2972
304,76,0,228,0,932,670,270,54.3783
359,19,141,154,10.91,942,801,56,68.7506
382,0,0,186,0,1047,739,28,37.4248
250,0,95.69,187.42,5.53,956.86,861.17,14,24.9177
236,157,0,192,0,972.6,749.1,3,13.5654
145.9,230.5,0,202.5,3.4,827,871.8,28,32.7205
475,118.8,0,181.1,8.9,852.1,781.5,28,68.2995
310,142.8,0,167.9,10,914.3,804,28,45.3048
213.5,0,174.24,154.61,11.66,1052.3,775.48,3,17.3679
139.6,209.4,0,192,0,1047,806.9,180,44.2078
314,0,113,170,10,925,783,28,38.459
182.04,45.21,121.97,170.21,8.19,1059.4,780.65,100,48.6701
375,93.8,0,126.6,23.4,852.1,992.6,3,28.9994
505,0,60,195,0,1030,630,28,64.0178
297.16,0,117.54,174.8,9.52,1022.8,753.45,28,47.4015
181.38,0,167.01,169.59,7.56,1055.6,777.8,28,27.7721
400,0,0,187,0,1025,745,28,43.699
310,0,0,192,0,970,850,7,14.9892
385,0,0,186,0,966,763,1,6.26734
362.6,189,0,164.9,11.6,944.7,755.8,28,71.2987
198.6,132.4,0,192,0,978.4,825.5,3,9.13142
144.8,0,133.6,180.8,11.1,979.5,811.5,28,13.2021
349,0,0,192,0,1047,806.9,3,15.0492
167.95,42.08,163.83,121.75,5.72,1058.7,780.11,3,7.74971
540,0,0,162,2.5,1040,676,28,79.9861
139.6,209.4,0,192,0,1047,806.9,360,44.698
339.2,0,0,185.7,0,1069.2,754.3,28,31.9
331,0,0,192,0,978,825,360,41.2445
500,0,0,200,0,1125,613,3,26.0622
153,145,113,178,8,867,824,28,26.2277
239.6,359.4,0,185.7,0,941.6,664.3,28,39.4353
337.9,189,0,174.9,9.5,944.7,755.8,3,24.0972
469,117.2,0,137.8,32.2,852.1,840.5,3,40.1965
362.6,189,0,164.9,11.6,944.7,755.8,28,71.2987
182.04,45.21,121.97,170.21,8.19,1059.4,780.65,3,7.31534
342,38,0,228,0,932,670,90,50.4593
190,190,0,228,0,932,670,28,40.857
374,189.2,0,170.1,10.1,926.1,756.7,56,63.3973
165,128.5,132.1,175.06,8.08,1005.8,746.6,56,53.724
540,0,0,173,0,1125,613,90,69.6578
266.2,112.3,87.5,177.9,10.4,909.7,744.5,28,39.4215
401.8,94.7,0,147.4,11.4,946.8,852.1,3,41.0997
298,0,107,164,13,953,784,28,35.8596
339,0,0,197,0,968,781,3,13.2241
238,0,0,185,0,1118,789,28,17.5403
427.5,47.5,0,228,0,932,594,7,35.0764
307,0,0,193,0,968,812,365,36.1492
213.74,0,174.74,154.79,10.16,1053.5,776.35,3,17.5747
290.35,0,96.18,168.08,9.41,961.18,865,3,22.5045
166.8,250.2,0,203.5,0,975.6,692.6,3,6.90234
167.35,129.9,128.62,175.46,7.79,1006.3,746.6,28,41.2031
366,187,0,191.3,6.6,824.3,756.9,28,65.9091
393,0,0,192,0,940.6,785.6,90,48.8466
491,26,123,210,3.93,882,699,7,33.4888
374,189.2,0,170.1,10.1,926.1,756.7,28,61.0945
425,106.3,0,153.5,16.5,852.1,887.1,7,49.201
382.5,0,0,185.7,0,1047.8,739.3,28,37.4379
212.07,0,121.62,180.31,5.69,1057.6,779.32,3,12.4726
250,0,95.69,191.84,5.33,948.9,857.2,100,41.1617
298.1,0,107.5,163.6,12.8,953.2,784,28,35.8659
540,0,0,173,0,1125,613,180,71.6228
151,0,184,167,12,991,772,28,15.5684
237.5,237.5,0,228,0,932,594,180,36.252
166.09,0,163.27,176.46,4.49,1058.6,780.09,28,21.5392
480,0,0,192,0,936,721,28,43.892
228,342.1,0,185.7,0,955.8,674.3,7,21.9171
178.03,129.8,118.6,179.94,3.57,1007.3,746.8,14,34.2394
213.5,0,174.24,154.61,11.66,1052.3,775.48,100,59.3018
525,0,0,189,0,1125,613,3,33.7981
202,11,141,206,1.72,942,801,7,15.07
264.5,111,86.5,195.5,5.9,832.6,790.4,28,41.5423
424,22,132,178,8.48,822,750,7,39.0046
170.3,155.5,0,185.7,0,1026.6,724.3,28,25.7264
388.6,97.1,0,157.9,12.1,852.1,925.7,28,50.6972
331,0,0,192,0,978,825,7,16.2647
491,26,123,201,3.93,822,699,56,61.8558
213.5,0,174.24,154.61,11.66,1052.3,775.48,56,51.4349
246.83,0,125.08,143.3,11.99,1086.8,800.89,100,66.4241
218.85,0,124.13,158.49,11.33,1078.7,794.91,100,46.2294
284,15,141,179,5.46,842,801,56,44.5205
250.2,166.8,0,203.5,0,977.6,694.1,3,9.73126
108.3,162.4,0,203.5,0,938.2,849,90,29.2317
313,145,0,127,8,1000,822,28,44.5195
146,173,0,182,3,986,817,28,23.7387
401.8,94.7,0,147.4,11.4,946.8,852.1,28,68.4994
297.16,0,117.54,174.8,9.52,1022.8,753.45,100,56.7439
393,0,0,192,0,940,758,90,48.7942
250,180,95,159,9.45,860,800,28,67.8651
475,118.8,0,181.1,8.9,852.1,781.5,7,55.5993
325,0,0,184,0,1063,783,7,17.5403
385,0,0,186,0,966,763,3,14.6996
469,117.2,0,137.8,32.2,852.1,840.5,91,70.6989
480,0,0,192,0,936.2,712.2,3,24.4047
374,189.2,0,170.1,10.1,926.1,756.7,7,46.2018
154,144,112,220,10,923,658,28,16.4992
166,259.7,0,183.2,12.7,858.8,826.8,28,37.917
218.23,54.64,123.78,140.75,11.91,1075.7,792.67,56,61.9908
213.5,0,174.24,154.61,11.66,1052.3,775.48,28,45.9398
275,0,0,183,0,1088,808,28,24.4971
425,106.3,0,153.5,16.5,852.1,887.1,91,65.1969
362.6,189,0,164.9,11.6,944.7,755.8,3,35.3012
374,189.2,0,170.1,10.1,926.1,756.7,3,34.398
149,117.6,91.7,182.9,7.1,953.4,780.3,28,23.5242
318.8,212.5,0,155.7,14.3,852.1,880.4,28,55.4959
480,0,0,192,0,936.2,712.2,90,54.3155
172.38,13.61,172.37,156.76,4.14,1006.3,856.4,3,21.291
173,116,0,192,0,946.8,856.8,90,32.1027
375,0,0,186,0,1038,758,7,26.0622
359,19,141,154,10.91,942,801,28,59.4949
318.8,212.5,0,155.7,14.3,852.1,880.4,56,66.1001
144,0,175,158,18,943,844,28,15.4167
153,145,0,178,8,1000,822,28,19.0089
190.34,0,125.18,166.61,9.88,1079,798.9,28,24.8487
289,0,0,192,0,913.2,895.3,3,11.6549
425,106.3,0,153.5,16.5,852.1,887.1,28,60.2947
251.37,0,118.27,188.45,5.75,1028.4,757.73,14,29.9302
362.6,189,0,164.9,11.6,944.7,755.8,91,79.2966
349,0,0,192,0,1047,806,180,41.0514
252.31,0,98.75,146.25,14.17,987.76,889.01,28,50.6006
157,236,0,192,0,935.4,781.2,28,33.6644
475,118.8,0,181.1,8.9,852.1,781.5,91,74.1945
222.36,0,96.67,189.29,4.46,967.08,870.32,100,40.7136
136,162,126,172,10,923,764,28,29.0683
157,214,152,200,9,819,704,28,33.0535
236,157,0,192,0,972.6,749.1,90,47.7821
310,0,0,192,0,1012,830,28,27.8273
182.04,45.21,121.97,170.21,8.19,1059.4,780.65,14,21.5048
296,0,0,186,0,1090,769,28,25.1797
192,288,0,192,0,929.8,716.1,3,12.7884
305.3,203.5,0,203.5,0,965.4,631,28,43.377
380,0,0,228,0,932,670,365,52.5167
252.5,0,0,185.7,0,1111.6,784.3,28,19.7652
198.6,132.4,0,192,0,978.4,825.5,180,41.7195
246.83,0,125.08,143.3,11.99,1086.8,800.89,14,42.2166
310,0,0,192,0,1012,830,7,17.2438
154.8,183.4,0,193.3,9.1,1047.4,696.7,28,18.2877
250,0,0,182,0,1100,820,28,20.8704
190,190,0,228,0,932,670,270,50.6551
249.1,0,98.75,158.11,12.8,987.76,889.01,56,42.0305
200,133,0,192,0,965.4,806.2,3,11.4143
148,0,182,181,15,839,884,28,15.5201
166.09,0,163.27,176.46,4.49,1058.6,780.09,3,10.7627
350,0,0,203,0,974,775,56,29.9784
190.68,0,125.4,162.14,7.77,1090,804.01,3,15.0444
183.9,122.6,0,203.5,0,959.2,800,7,10.7875
200,0,0,180,0,1125,845,28,12.2451
150.7,0,185.3,166.7,15.6,1074.5,678,28,13.4613
500,0,0,151,9,1033,655,28,69.837
337.9,189,0,174.9,9.5,944.7,755.8,91,67.7962
236,0,0,193,0,968,885,180,24.1041
225,0,0,181,0,1113,833,28,17.3403
143,169.4,142.7,190.7,8.4,967.4,643.5,28,29.7261
153,102,0,192,0,888,943.1,90,26.3228
261,100,78,201,9,864,761,28,32.3985
349,0,0,192,0,1056,809,7,9.01145
275.07,0,121.35,159.48,9.9,1053.6,777.5,100,58.60546
236,0,0,194,0,968,885,14,12.838
116,173,0,192,0,909.8,891.9,90,31.0237
165,0,150,182,12,1023,729,28,18.0298
425,106.3,0,151.4,18.6,936,803.7,7,46.8016
381.4,0,0,185.7,0,1104.6,784.3,28,22.4893
289,0,0,192,0,913.2,895.3,28,25.5734
246.83,0,125.08,143.3,11.99,1086.8,800.89,56,60.3223
212.57,0,100.39,159.35,10.37,1003.8,903.79,100,47.7393
424,22,132,168,8.92,822,750,56,74.3649
382,0,0,186,0,1111,784,7,11.466
331,0,0,192,0,978,825,3,13.5206
116,173,0,192,0,909.8,891.9,28,22.348
233.81,0,94.58,197.89,4.567,947.04,852.16,14,22.1391
302,0,0,203,0,974,817,14,18.1263
313.3,145,0,178.5,8,867.2,824,28,40.9252
141.3,212,0,203.5,0,971.8,748.5,28,29.8922
167,187,195,185,7,898,636,28,23.8903
251.37,0,118.27,188.45,6.35,1028.4,757.73,3,13.1207
139.6,209.4,0,192,0,1047,806.9,3,8.06342
155,0,143,193,9,1047,697,28,12.4588
380,0,0,228,0,932,670,270,53.3006
190.34,0,125.18,166.61,9.88,1079,798.9,100,33.5637
275.07,0,121.35,159.48,9.9,1053.6,777.5,28,51.3315
380,0,0,228,0,932,670,180,53.1041
202,11,141,206,1.72,942,801,28,21.9667
250,0,95.69,191.84,5.33,948.9,857.2,56,39.64487
194.68,0,100.52,170.17,7.48,998,901.8,56,43.3887
102,153,0,192,0,887,942,90,25.461
251.81,0,99.94,146.14,12.35,1006,899.76,28,33.9429
393,0,0,192,0,940.6,785.6,3,19.1991
334,17.6,158,189,15.3,967,633,28,44.3264
446,24,79,162,11.61,967,712,7,52.0072
190.34,0,125.18,161.85,9.88,1088.1,802.59,14,22.7182
164,163,128,197,8,961,641,28,27.2343
314,145,113,179,8,869,690,28,46.2294
212.52,0,100.37,159.32,8.71,1007.8,903.59,3,13.5413
450.1,50,0,200,3,1124.4,613.2,28,39.376
145.7,172.6,0,181.9,3.4,985.8,816.8,28,23.7442
280,129,100,172,9,825,805,28,52.8208
213.76,98.06,24.52,181.74,6.65,1066,785.52,14,17.8367